File: Code/Raman_data/_2017_09_28_11_05_41_film_duospot_30um_01.txt
33.2913	31.1577
35.5852	88.3165
37.8774	107.41
40.1703	72.7924
42.4627	91.8966
44.7546	123.161
47.0447	112.803
49.3355	93.756
51.6259	85.1214
53.9157	55.2741
56.2037	67.0654
58.4925	69.3586
60.7808	86.1845
63.0674	85.271
65.3546	111.131
67.6414	129.995
69.9264	140.863
72.2121	115.177
74.496	97.9533
76.7808	109.131
79.0637	89.3165
81.3474	95.7474
83.6306	99.3189
85.9119	96.6886
88.1941	93.167
90.4745	101.322
92.7556	85.3679
95.035	89.659
97.3151	93.1577
99.5934	97.534
101.871	91.4039
104.15	92.3151
106.427	95.4563
108.704	105.405
110.98	102.307
113.255	85.4259
115.531	94.6286
117.806	95.232
120.079	86.6138
122.354	88.0589
124.627	94.8972
126.899	91.7212
129.172	103.018
131.443	82.3393
133.714	89.205
135.984	97.5834
138.255	89.1294
140.524	98.2067
142.793	105.772
145.061	109.498
147.329	98.7725
149.597	107.044
151.864	91.0122
154.13	100.008
156.396	101.493
158.661	114.447
160.926	100.837
163.19	125.791
165.453	131.729
167.717	154.2
169.979	168.316
172.243	196.153
174.504	183.274
176.765	152.997
179.026	155.209
181.286	113.779
183.544	119.749
185.804	115.113
188.062	108.231
190.32	117.125
192.578	116.246
194.835	105.657
197.092	106.323
199.348	113.637
201.603	102.965
203.858	115.504
206.112	114.651
208.366	107.752
210.619	117.867
212.873	111.744
215.125	108.697
217.376	106.369
219.628	112.118
221.879	103.945
224.129	104.734
226.378	121.664
228.628	142.057
230.877	133.073
233.124	123.155
235.372	119.448
237.62	109.534
239.866	104.474
242.112	94.876
244.358	95.5164
246.603	91.8394
248.848	99.9178
251.091	93.2867
253.335	105.051
255.578	96.9453
257.821	116.026
260.062	118.961
262.304	132.767
264.545	128.993
266.786	131.28
269.025	130.625
271.265	108.625
273.504	110.913
275.743	132.291
277.98	106.488
280.217	117.43
282.455	119.736
284.691	111.79
286.927	130.213
289.162	125.779
291.397	144.193
293.632	185.489
295.865	193.787
298.098	195.609
300.331	167.719
302.564	163.825
304.796	155.429
307.027	170.862
309.257	182.91
311.488	211.247
313.718	214.415
315.947	230.964
318.175	257.831
320.403	232.703
322.631	228.341
324.859	245.284
327.086	235.303
329.312	224.776
331.537	203.339
333.762	220.175
335.987	230.935
338.211	265.333
340.435	293.769
342.658	321.184
344.88	439.478
347.103	560.02
349.324	737.59
351.545	953.961
353.766	1374.87
355.986	2060.25
358.206	1613.28
360.425	605.97
362.644	303.857
364.861	249.237
367.078	214.855
369.296	194.405
371.512	178.02
373.729	164.522
375.944	153.494
378.158	159.213
380.373	148.145
382.588	134.942
384.801	139.174
387.013	129.583
389.226	122.721
391.439	119.626
393.651	150.538
395.861	154.213
398.072	156.813
400.282	143.597
402.491	160.561
404.7	169.733
406.908	225.039
409.116	247.31
411.324	338.725
413.531	526.463
415.738	1034.19
417.943	2067.54
420.149	1869.01
422.353	731.827
424.558	316.504
426.762	210.287
428.966	179.083
431.168	175.934
433.371	152.883
435.573	152.84
437.775	144.136
439.975	128.544
442.175	135.816
444.376	138.128
446.575	129.07
448.775	126.457
450.973	129.574
453.17	125.44
455.369	118.243
457.565	137.596
459.761	131.374
461.957	132.294
464.154	112.896
466.348	127.981
468.542	133.809
470.736	128.166
472.931	141.9
475.123	147.67
477.316	143.378
479.507	160.697
481.699	154.92
483.889	148.344
486.08	159.676
488.271	168.133
490.46	165.159
492.649	152.08
494.838	164.012
497.026	173.77
499.213	162.806
501.4	158.404
503.587	144.891
505.773	153.349
507.958	146.618
510.143	157.061
512.328	167.664
514.512	175.446
516.696	180.988
518.879	201.366
521.06	241.053
523.243	287.429
525.424	276.348
527.606	245.827
529.786	213.852
531.967	173.535
534.145	163.797
536.325	158.786
538.504	162.135
540.682	164.245
542.86	150.242
545.036	145.399
547.213	150.339
549.39	156.756
551.564	156.982
553.74	148.666
555.915	125.899
558.089	128.097
560.263	133.209
562.436	129.026
564.608	126.83
566.781	133.806
568.952	137.923
571.124	141.359
573.295	147.627
575.465	163.074
577.635	185.659
579.804	211.848
581.973	230.594
584.141	214.474
586.309	232.007
588.476	202.922
590.642	177.975
592.809	151.693
594.975	138.747
597.141	137.696
599.305	145.273
601.469	145.993
603.634	124.813
605.797	123.121
607.959	131.933
610.123	129.773
612.284	132.716
614.445	130.073
616.607	146.827
618.768	136.982
620.927	140.532
623.086	137.723
625.245	141.185
627.405	133.652
629.563	131.7
631.72	127.458
633.877	148.383
636.033	140.667
638.189	129.535
640.345	154.917
642.501	133.257
644.656	143.684
646.81	153.571
648.963	144.848
651.116	152.768
653.269	153.295
655.421	151.744
657.573	156.721
659.724	157.534
661.875	156.838
664.026	148.313
666.176	156.625
668.325	176.791
670.473	163.183
672.621	176.157
674.769	174.503
676.917	173.676
679.064	181.252
681.211	170.528
683.357	180.513
685.501	176.802
687.646	172.602
689.791	172.371
691.935	195.563
694.078	191.936
696.222	193.762
698.364	230.583
700.506	215.842
702.648	224.549
704.789	244.801
706.929	207.392
709.07	235.087
711.21	219.124
713.348	226.535
715.487	219.046
717.626	205.83
719.763	197.194
721.901	180.096
724.037	189.807
726.174	165.353
728.31	179.593
730.445	166.044
732.58	163.429
734.715	172.362
736.848	184.601
738.982	172.271
741.115	172.337
743.247	152.059
745.38	165.812
747.511	169.289
749.641	157.092
751.773	176.308
753.902	189.284
756.032	157.775
758.162	182.287
760.29	170.693
762.418	172.872
764.547	163.454
766.673	177.839
768.8	170.849
770.926	191.108
773.052	164.393
775.178	155.493
777.303	166.163
779.427	167.795
781.551	141.036
783.674	155.061
785.797	153.511
787.919	146.605
790.041	132.887
792.164	133.211
794.285	141.634
796.405	140.14
798.525	142.738
800.645	145.363
802.764	150.599
804.883	129.59
807.001	157.421
809.118	140.808
811.235	141.478
813.352	145.957
815.469	142.547
817.585	139.86
819.7	149.052
821.815	135.101
823.93	143.958
826.043	138.109
828.157	144.164
830.27	134.701
832.383	136.574
834.495	144.147
836.606	145.18
838.717	141.883
840.828	122.436
842.939	139.238
845.048	155.443
847.157	146.931
849.266	146.458
851.374	147.887
853.482	154.657
855.589	136.547
857.696	135.229
859.803	136.547
861.909	155.879
864.015	144.331
866.119	155.876
868.224	134.443
870.328	145.768
872.432	149.848
874.534	154.558
876.638	158.302
878.739	139.964
880.842	160.708
882.943	147.944
885.043	147.058
887.144	154.861
889.243	147.528
891.344	148.935
893.442	152.078
895.54	146.422
897.638	146.931
899.736	154.813
901.833	137.381
903.929	153.85
906.026	134.578
908.122	144.406
910.217	149.587
912.311	129.701
914.405	135.535
916.5	138.027
918.593	153.936
920.686	142.138
922.778	132.774
924.87	142.475
926.961	149.618
929.052	131.858
931.143	132.63
933.233	153.836
935.322	150.529
937.411	147.86
939.5	149.242
941.588	153.345
943.676	147.53
945.763	155.666
947.85	134.682
949.937	152.725
952.023	138.133
954.108	143.491
956.193	142.321
958.278	137.895
960.362	138.71
962.445	144.061
964.528	126.059
966.611	147.512
968.694	120.252
970.776	132.951
972.857	138.908
974.938	136.221
977.017	135.617
979.097	126.401
981.177	136.48
983.256	145.621
985.335	151.362
987.414	142.656
989.489	141.991
991.567	147.112
993.644	135.544
995.721	128.812
997.797	136.674
999.87	137.657
1001.95	145.104
1004.02	154.59
1006.1	134.684
1008.17	151.535
1010.24	141.3
1012.31	119.474
1014.39	138.272
1016.46	150.337
1018.53	139.441
1020.6	128.604
1022.67	144.411
1024.74	156.546
1026.81	145.462
1028.88	145.162
1030.95	146.095
1033.01	133.589
1035.08	146.098
1037.15	143.382
1039.22	155.249
1041.28	143.558
1043.35	145.392
1045.41	149.183
1047.48	148.334
1049.54	155.607
1051.6	153.495
1053.67	149.602
1055.73	155.871
1057.79	157.733
1059.86	153.858
1061.92	146.935
1063.98	150.295
1066.04	155.431
1068.1	160.906
1070.16	143.723
1072.22	140.642
1074.28	145.164
1076.34	146.411
1078.39	128.69
1080.45	138.816
1082.51	136.341
1084.57	144.589
1086.62	151.19
1088.68	150.321
1090.73	147.315
1092.79	142.806
1094.84	130.04
1096.89	133.335
1098.95	138.803
1101	153.218
1103.05	145.74
1105.11	146.492
1107.16	120.961
1109.21	146.618
1111.26	151.226
1113.31	141.039
1115.36	146.23
1117.41	139.331
1119.46	145.256
1121.5	140.897
1123.55	139.122
1125.6	144.984
1127.65	157.284
1129.69	134.828
1131.74	149.794
1133.79	151.932
1135.83	150.167
1137.88	133.897
1139.92	134.952
1141.96	125.77
1144.01	135.443
1146.05	138.163
1148.09	142.159
1150.14	144.023
1152.18	147.105
1154.22	145.095
1156.26	141.811
1158.3	142.392
1160.34	142.917
1162.38	130.523
1164.42	139.476
1166.45	124.66
1168.49	137.847
1170.53	128.53
1172.57	136.049
1174.61	149.933
1176.64	113.318
1178.68	133.517
1180.71	147.491
1182.75	125.083
1184.78	138.088
1186.82	139.046
1188.85	141.864
1190.88	138.486
1192.91	139.151
1194.95	155.56
1196.98	138.994
1199.01	138.732
1201.04	131.683
1203.07	144.16
1205.1	150.942
1207.13	136.936
1209.16	139.735
1211.19	141.302
1213.22	138.017
1215.25	134.824
1217.27	126.696
1219.3	137.85
1221.33	136.528
1223.35	141.934
1225.38	143.053
1227.4	142.478
1229.43	140.071
1231.45	146.811
1233.48	142.943
1235.5	147.851
1237.52	138.608
1239.54	136.805
1241.57	125.754
1243.59	130.764
1245.61	141.318
1247.63	137.775
1249.65	123.718
1251.67	140.559
1253.69	141.13
1255.71	144.843
1257.73	136.743
1259.75	138.089
1261.76	140.17
1263.78	127.759
1265.8	145.871
1267.81	146.071
1269.83	135.524
1271.85	143.63
1273.86	140.011
1275.87	128.196
1277.89	136.909
1279.9	132.522
1281.91	122.462
1283.93	140.542
1285.94	131.952
1287.95	132.758
1289.96	129.614
1291.97	137.058
1293.98	132.704
1296	127.784
1298	130.971
1300.01	138.427
1302.02	145.803
1304.03	139.559
1306.04	132.828
1308.05	127.764
1310.05	135.58
1312.06	127.26
1314.07	134.19
1316.07	134.42
1318.08	140.28
1320.08	117.06
1322.09	126.206
1324.09	122.448
1326.09	132.563
1328.1	140.503
1330.1	120.909
1332.1	125.872
1334.1	135.24
1336.1	136.441
1338.11	138.945
1340.11	131.474
1342.11	128.907
1344.11	130.692
1346.1	130.007
1348.1	134.965
1350.1	139.373
1352.1	118.26
1354.1	143.194
1356.09	128.313
1358.09	126.455
1360.09	135.098
1362.08	128.846
1364.08	125.799
1366.07	131.451
1368.07	137.594
1370.06	127.472
1372.05	138.034
1374.05	130.717
1376.04	133.188
1378.03	133.024
1380.02	129.885
1382.01	123.15
1384.01	136.292
1386	121.941
1387.99	125.008
1389.98	129.372
1391.97	140.489
1393.95	119.256
1395.94	149.729
1397.93	119.353
1399.92	128.669
1401.91	143.545
1403.89	121.126
1405.88	131.608
1407.86	127.263
1409.85	129.868
1411.83	121.837
1413.82	133.576
1415.8	135.455
1417.79	114.905
1419.77	114.596
1421.75	121.722
1423.73	124.21
1425.72	127.446
1427.7	125.562
1429.68	135.809
1431.66	132.301
1433.64	128.271
1435.62	129.495
1437.6	134.559
1439.58	129.574
1441.55	118.332
1443.53	121.228
1445.51	131.995
1447.49	130.537
1449.46	133.498
1451.44	123.072
1453.42	121.132
1455.39	127.116
1457.37	147.631
1459.34	127.985
1461.32	128.451
1463.29	120.477
1465.26	118.534
1467.24	134.254
1469.21	145.882
1471.18	127.072
1473.15	122.599
1475.12	121.231
1477.09	116.427
1479.06	122.415
1481.03	125.831
1483	130.001
1484.97	110.233
1486.94	129.464
1488.91	126.982
1490.88	136.678
1492.84	119.843
1494.81	119.209
1496.78	122.33
1498.74	124.823
1500.71	128.326
1502.67	116.78
1504.64	116.839
1506.6	118.225
1508.57	126.26
1510.53	123.302
1512.49	128.745
1514.45	120.955
1516.42	121.698
1518.38	126.761
1520.34	128.764
1522.3	139.768
1524.26	124.694
1526.22	116.335
1528.18	126.817
1530.14	109.914
1532.1	123.566
1534.06	129.18
1536.02	131.119
1537.97	114.763
1539.93	125.992
1541.89	110.63
1543.84	116.67
1545.8	128.346
1547.75	123.63
1549.71	110.805
1551.66	112.541
1553.62	119.828
1555.57	118.621
1557.52	117.34
1559.48	122.092
1561.43	128.176
1563.38	125.844
1565.33	103.768
1567.29	127.519
1569.24	123.581
1571.19	112.42
1573.14	124.705
1575.08	123.661
1577.03	121.751
1578.98	131.799
1580.93	107.78
1582.88	116.779
1584.83	124.546
1586.77	116.644
1588.72	131.347
1590.67	125.237
1592.61	121.508
1594.56	119.18
1596.5	121.072
1598.45	116.654
1600.39	115.232
1602.33	104.798
1604.28	121.111
1606.22	115.734
1608.16	114.606
1610.1	107.342
1612.05	112.787
1613.99	110.342
1615.93	111.53
1617.87	107.319
1619.81	132.909
1621.75	115.374
1623.69	117.154
1625.63	118.369
1627.56	111.17
1629.5	120.96
1631.44	112.528
1633.37	116.877
1635.31	111.393
1637.25	113.884
1639.18	108.058
1641.12	118.119
1643.05	102.292
1644.99	112.147
1646.92	111.705
1648.86	120.548
1650.79	105.322
1652.72	103.57
1654.65	101.871
1656.59	98.9593
1658.52	112.756
1660.45	109.845
1662.38	107.527
1664.31	112.135
1666.24	109.301
1668.17	105.001
1670.1	110.02
1672.03	116.41
1673.95	101.489
1675.88	100.961
1677.81	114.948
1679.74	104.413
1681.66	110.729
1683.59	115.65
1685.52	95.4639
1687.44	103.096
1689.37	115.814
1691.29	106.345
1693.21	99.9967
1695.14	117.718
1697.06	106.469
1698.98	95.087
1700.91	108.92
1702.83	100.688
1704.75	96.9044
1706.67	98.2825
1708.59	109.026
1710.51	108.917
1712.43	103.24
1714.35	108.325
1716.27	110.814
1718.19	103.814
1720.11	103.695
1722.03	93.5301
1723.94	106.084
1725.86	101.763
1727.78	104.31
1729.69	106.179
1731.61	106.063
1733.52	98.9894
1735.44	106.402
1737.35	108.842
1739.27	97.527
1741.18	98.1405
1743.1	99.8913
1745.01	103.934
1746.92	106.787
1748.83	99.3114
1750.74	100.572
1752.66	113.524
1754.57	101.606
1756.48	101.519
1758.39	94.0375
1760.3	99.4678
1762.21	101.778
1764.12	102.368
1766.02	106.692
1767.93	110.28
1769.84	94.1614
1771.75	100.337
1773.65	107.156
1775.56	110.084
1777.47	101.896
1779.37	107.475
1781.28	100.883
1783.18	93.461
1785.09	100.685
1786.99	95.7247
1788.89	104.312
1790.8	108.017
1792.7	101.99
1794.6	99.0669
1796.5	104.789
1798.4	111.722
1800.31	103.653
1802.21	91.1761
1804.11	100.32
1806.01	102.176
1807.91	94.8673
1809.81	101.059
1811.7	98.5357
1813.6	99.0941
1815.5	104.042
1817.4	100.439
1819.3	94.9277
1821.19	97.3351
1823.09	94.8785
1824.98	85.1266
1826.88	99.3969
1828.78	112.419
1830.67	87.8063
1832.56	87.2243
1834.46	95.2389
1836.35	91.6189
1838.24	92.372
1840.14	92.3217
1842.03	87.2251
1843.92	90.8975
1845.81	99.5945
1847.7	84.1731
1849.59	94.7538
1851.48	94.7474
1853.37	98.3818
1855.26	82.2714
1857.15	95.3467
1859.04	89.295
1860.93	75.7374
1862.82	89.9641
1864.7	95.4024
1866.59	91.7178
1868.48	93.8122
1870.36	97.05
1872.25	83.9184
1874.14	96.9004
1876.02	85.6924
1877.9	89.9979
1879.79	91.255
1881.67	94.3841
1883.56	89.9487
1885.44	87.3532
1887.32	94.7805
1889.2	84.2808
1891.09	89.8221
1892.97	91.6315
1894.85	81.6866
1896.73	97.675
1898.61	96.377
1900.49	93.3641
1902.37	96.522
1904.25	98.8884
1906.13	95.0413
1908.01	80.8242
1909.88	75.2644
1911.76	92.4832
1913.64	86.2765
1915.51	83.797
1917.39	91.1981
1919.27	96.1166
1921.14	83.7412
1923.02	77.5407
1924.89	91.6123
1926.76	89.6298
1928.64	90.802
1930.51	85.2855
1932.38	85.2078
1934.26	77.7537
1936.13	80.7333
1938	81.2433
1939.87	93.3804
1941.74	99.4718
1943.62	87.8467
1945.48	79.212
1947.35	85.7607
1949.22	86.8688
1951.09	86.2722
1952.96	83.2497
1954.83	78.9114
1956.7	84.2654
1958.57	81.7848
1960.43	81.0762
1962.3	92.4117
1964.17	76.7012
1966.03	94.9084
1967.9	90.6208
1969.76	85.0174
1971.63	83.082
1973.49	85.4529
1975.35	91.5084
1977.22	89.13
1979.08	81.8644
1980.94	78.8
1982.81	83.5892
1984.67	82.9591
1986.53	84.7445
1988.39	87.7789
1990.25	89.5316
1992.11	84.0061
1993.97	78.6082
1995.83	94.9112
1997.69	79.885
1999.55	86.3585
2001.41	75.4541
2003.27	82.6215
2005.12	76.0627
2006.98	86.8183
2008.84	87.351
2010.69	77.154
2012.55	86.088
2014.41	80.0183
2016.26	78.779
2018.12	93.1548
2019.97	81.8271
2021.83	81.7462
2023.68	81.6282
2025.53	85.7599
2027.39	76.8653
2029.24	84.5974
2031.09	83.9477
2032.94	71.4295
2034.79	77.9418
2036.64	91.0383
2038.5	76.8749
2040.35	82.2908
2042.19	92.2583
2044.04	77.1801
2045.89	78.881
2047.74	81.9386
2049.59	86.82
2051.44	84.4642
2053.28	88.6214
2055.13	79.1212
2056.98	81.4896
2058.83	74.3338
2060.67	79.0765
2062.52	73.0924
2064.36	80.182
2066.21	80.1743
2068.05	76.5908
2069.89	65.8586
2071.74	74.7399
2073.58	77.7254
2075.42	82.4967
2077.27	90.8767
2079.11	75.5046
2080.95	89.7578
2082.79	79.5365
2084.63	77.0565
2086.47	84.1797
2088.31	75.96
2090.15	74.8596
2091.99	76.119
2093.83	66.5821
2095.67	74.201
2097.51	77.1685
2099.35	79.6794
2101.18	87.5184
2103.02	79.2291
2104.86	73.2899
2106.69	79.21
2108.53	69.045
2110.36	78.5708
2112.2	82.7873
2114.03	73.9343
2115.87	76.9763
2117.7	78.1
2119.54	72.0359
2121.37	75.0784
2123.2	71.635
2125.03	74.005
2126.87	70.9417
2128.7	76.2944
2130.53	85.2156
2131.44	73.2611